Folder: aircraft-polar-reconstruction-from-flight-test/data/dawn1_flight1_log

Note: README.md
# Aircraft Polar Reconstruction from Minimal Flight Test Data

by Peter Sharpe

This repository contains the code used to generate the results in the paper "Physics-Informed Regression and Uncertainty Quantification of Aircraft Performance from Minimal Flight Data", with full citation here:

```bibtex
@inproceedings{sharpe2024physics,
  title={Physics-Informed Regression and Uncertainty Quantification of Aircraft Performance from Minimal Flight Data},
  author={Peter Sharpe and R. John Hansman},
  booktitle={AIAA SciTech 2024},
  year={2024}
}
```

[A summary of the problem we're solving and key results is in this presentation](./presentation/Physics-Informed%20Regression%20of%20Aircraft%20Performance%20from%20Minimal%20Flight%20Data.pptx).

[The paper PDF is available here](./out/main.pdf).

## Problem Statement

A common task in initial flight testing of aircraft is validating key performance curves that characterize how the aircraft functions under different conditions. Three major curves need to be determined: the power curve relating velocity to required power; the aerodynamic polar showing the aircraft's drag coefficient as a function of lift coefficient; and the propulsive efficiency curve delineating efficiency as a function of advance ratio.

The standard procedure for mapping these curves is known as "sweeping and averaging." It involves trimming the aircraft at each test condition by adjusting power, pitch angle, and airspeed. The aircraft must be held at each trimmed condition long enough to account for phugoid damping and to average out variability from wind gusts. This entire sweep of conditions needs to be repeated multiple times to map out the full performance curve.

This standard sweeping and averaging methodology is extremely data- and labor-intensive, requiring a costly amount of flight test time. The large number of condition sets to map and long duration sampling at each set combine to make the initial flight test campaign highly demanding in resources. New methods that can reduce the flight time requirements would therefore be very useful in improving efficiency.

## Methodology

![methodology](./figures/diagram_inference_based_flight_reconstruction.svg)

## Case Study

MIT 16.821 Solar-Electric Airplane (4-meter wingspan, 9.5 kg TOGW).

![Seaway](assets/Flight1_02549.JPG)

![map](assets/flight3-circuit.png)

Original three-view (some discrepancies from as-built aircraft, but serves to illustrate concept).

![threeview](assets/seaway_mini_packet_Page_1.png)

## Main Case Study Results

![powercurve](./figures/power_curve_with_physics.png)

![aero](./figures/aerodynamic_polar_with_physics.png)

![prop](./figures/propeller_polar_with_physics.png)

## Other Results

The paper develops some methods for estimating noise variance of a signal directly from the noisy signal itself, under certain assumptions. This is useful for estimating the uncertainty of the reconstructed curves. See [the paper](./out/main.pdf) for more details.

File: log_battery_status_0.csv
timestamp,voltage_v,voltage_filtered_v,current_a,current_filtered_a,current_average_a,discharged_mah,remaining,scale,time_remaining_s,temperature,voltage_cell_v[0],voltage_cell_v[1],voltage_cell_v[2],voltage_cell_v[3],voltage_cell_v[4],voltage_cell_v[5],voltage_cell_v[6],voltage_cell_v[7],voltage_cell_v[8],voltage_cell_v[9],voltage_cell_v[10],voltage_cell_v[11],voltage_cell_v[12],voltage_cell_v[13],max_cell_voltage_delta,custom_faults,average_power,available_energy,full_charge_capacity_wh,remaining_capacity_wh,design_capacity,nominal_voltage,capacity,cycle_count,average_time_to_empty,serial_number,manufacture_date,state_of_health,max_error,interface_error,faults,average_time_to_full,over_discharge_count,connected,cell_count,source,priority,id,is_powering_off,is_required,warning,mode
16900620,0.0235657,0.0235657,0.0326294,0.0326294,15.0,0.156681,1.0,1.0,nan,nan,0.0,0.0,0.0,0.0,0.0,0.0,0.0,0.0,0.0,0.0,0.0,0.0,0.0,0.0,0.0,0,0.0,0.0,0.0,0.0,0.0,0.0,0,0,0,0,0,0,0,0,0,0,0,0,0,0,0,1,0,0,0,0
20300618,0.02991028,0.02991028,0.0326294,0.0326294,15.0,0.191912,1.0,1.0,nan,nan,0.0,0.0,0.0,0.0,0.0,0.0,0.0,0.0,0.0,0.0,0.0,0.0,0.0,0.0,0.0,0,0.0,0.0,0.0,0.0,0.0,0.0,0,0,0,0,0,0,0,0,0,0,0,0,0,0,0,1,0,0,0,0
23900639,0.02991028,0.02991028,0.0398804,0.0398804,15.0,0.229243,1.0,1.0,nan,nan,0.0,0.0,0.0,0.0,0.0,0.0,0.0,0.0,0.0,0.0,0.0,0.0,0.0,0.0,0.0,0,0.0,0.0,0.0,0.0,0.0,0.0,0,0,0,0,0,0,0,0,0,0,0,0,0,0,0,1,0,0,0,0
27510632,0.0290039,0.0290039,0.03746338,0.03746338,15.0,0.266741,1.0,1.0,nan,nan,0.0,0.0,0.0,0.0,0.0,0.0,0.0,0.0,0.0,0.0,0.0,0.0,0.0,0.0,0.0,0,0.0,0.0,0.0,0.0,0.0,0.0,0,0,0,0,0,0,0,0,0,0,0,0,0,0,0,1,0,0,0,0
31100619,0.02991028,0.02991028,0.03746338,0.03746338,15.0,0.304613,1.0,1.0,nan,nan,0.0,0.0,0.0,0.0,0.0,0.0,0.0,0.0,0.0,0.0,0.0,0.0,0.0,0.0,0.0,0,0.0,0.0,0.0,0.0,0.0,0.0,0,0,0,0,0,0,0,0,0,0,0,0,0,0,0,1,0,0,0,0
34710744,0.0326294,0.0326294,0.0386719,0.0386719,15.0,0.342784,1.0,1.0,nan,nan,0.0,0.0,0.0,0.0,0.0,0.0,0.0,0.0,0.0,0.0,0.0,0.0,0.0,0.0,0.0,0,0.0,0.0,0.0,0.0,0.0,0.0,0,0,0,0,0,0,0,0,0,0,0,0,0,0,0,1,0,0,0,0
38300872,0.0326294,0.0326294,0.0386719,0.0386719,15.0,0.380234,1.0,1.0,nan,nan,0.0,0.0,0.0,0.0,0.0,0.0,0.0,0.0,0.0,0.0,0.0,0.0,0.0,0.0,0.0,0,0.0,0.0,0.0,0.0,0.0,0.0,0,0,0,0,0,0,0,0,0,0,0,0,0,0,0,1,0,0,0,0
41910620,0.02628479,0.02628479,0.0314209,0.0314209,15.0,0.418661,1.0,1.0,nan,nan,0.0,0.0,0.0,0.0,0.0,0.0,0.0,0.0,0.0,0.0,0.0,0.0,0.0,0.0,0.0,0,0.0,0.0,0.0,0.0,0.0,0.0,0,0,0,0,0,0,0,0,0,0,0,0,0,0,0,1,0,0,0,0
45500617,0.02628479,0.02628479,0.0386719,0.0386719,15.0,0.457115,1.0,1.0,nan,nan,0.0,0.0,0.0,0.0,0.0,0.0,0.0,0.0,0.0,0.0,0.0,0.0,0.0,0.0,0.0,0,0.0,0.0,0.0,0.0,0.0,0.0,0,0,0,0,0,0,0,0,0,0,0,0,0,0,0,1,0,0,0,0
49110679,0.02628479,0.02628479,0.0398804,0.0398804,15.0,0.495748,1.0,1.0,nan,nan,0.0,0.0,0.0,0.0,0.0,0.0,0.0,0.0,0.0,0.0,0.0,0.0,0.0,0.0,0.0,0,0.0,0.0,0.0,0.0,0.0,0.0,0,0,0,0,0,0,0,0,0,0,0,0,0,0,0,1,0,0,0,0
52701234,0.024472,0.024472,0.0422974,0.0422974,15.0,0.534504,1.0,1.0,nan,nan,0.0,0.0,0.0,0.0,0.0,0.0,0.0,0.0,0.0,0.0,0.0,0.0,0.0,0.0,0.0,0,0.0,0.0,0.0,0.0,0.0,0.0,0,0,0,0,0,0,0,0,0,0,0,0,0,0,0,1,0,0,0,0
56300679,0.02991028,0.02991028,0.0410889,0.0410889,15.0,0.5734166,1.0,1.0,nan,nan,0.0,0.0,0.0,0.0,0.0,0.0,0.0,0.0,0.0,0.0,0.0,0.0,0.0,0.0,0.0,0,0.0,0.0,0.0,0.0,0.0,0.0,0,0,0,0,0,0,0,0,0,0,0,0,0,0,0,1,0,0,0,0
59910622,0.02628479,0.02628479,0.0386719,0.0386719,15.0,0.6120341,1.0,1.0,nan,nan,0.0,0.0,0.0,0.0,0.0,0.0,0.0,0.0,0.0,0.0,0.0,0.0,0.0,0.0,0.0,0,0.0,0.0,0.0,0.0,0.0,0.0,0,0,0,0,0,0,0,0,0,0,0,0,0,0,0,1,0,0,0,0
63500849,0.02628479,0.02628479,0.04350586,0.04350586,15.0,0.65073,1.0,1.0,nan,nan,0.0,0.0,0.0,0.0,0.0,0.0,0.0,0.0,0.0,0.0,0.0,0.0,0.0,0.0,0.0,0,0.0,0.0,0.0,0.0,0.0,0.0,0,0,0,0,0,0,0,0,0,0,0,0,0,0,0,1,0,0,0,0
67110618,0.03081665,0.03081665,0.0398804,0.0398804,15.0,0.6898843,1.0,1.0,nan,nan,0.0,0.0,0.0,0.0,0.0,0.0,0.0,0.0,0.0,0.0,0.0,0.0,0.0,0.0,0.0,0,0.0,0.0,0.0,0.0,0.0,0.0,0,0,0,0,0,0,0,0,0,0,0,0,0,0,0,1,0,0,0,0
70700827,0.03081665,0.03081665,0.0422974,0.0422974,15.0,0.7287368,1.0,1.0,nan,nan,0.0,0.0,0.0,0.0,0.0,0.0,0.0,0.0,0.0,0.0,0.0,0.0,0.0,0.0,0.0,0,0.0,0.0,0.0,0.0,0.0,0.0,0,0,0,0,0,0,0,0,0,0,0,0,0,0,0,1,0,0,0,0
74300859,0.0290039,0.0290039,0.0398804,0.0398804,15.0,0.767635,1.0,1.0,nan,nan,0.0,0.0,0.0,0.0,0.0,0.0,0.0,0.0,0.0,0.0,0.0,0.0,0.0,0.0,0.0,0,0.0,0.0,0.0,0.0,0.0,0.0,0,0,0,0,0,0,0,0,0,0,0,0,0,0,0,1,0,0,0,0
77901143,0.0235657,0.0235657,0.0398804,0.0398804,15.0,0.8068387,1.0,1.0,nan,nan,0.0,0.0,0.0,0.0,0.0,0.0,0.0,0.0,0.0,0.0,0.0,0.0,0.0,0.0,0.0,0,0.0,0.0,0.0,0.0,0.0,0.0,0,0,0,0,0,0,0,0,0,0,0,0,0,0,0,1,0,0,0,0
81500633,0.03081665,0.03081665,0.0447144,0.0447144,15.0,0.8459488,1.0,1.0,nan,nan,0.0,0.0,0.0,0.0,0.0,0.0,0.0,0.0,0.0,0.0,0.0,0.0,0.0,0.0,0.0,0,0.0,0.0,0.0,0.0,0.0,0.0,0,0,0,0,0,0,0,0,0,0,0,0,0,0,0,1,0,0,0,0
85110620,0.0344421,0.0344421,0.0483398,0.0483398,15.0,0.8852959,1.0,1.0,nan,nan,0.0,0.0,0.0,0.0,0.0,0.0,0.0,0.0,0.0,0.0,0.0,0.0,0.0,0.0,0.0,0,0.0,0.0,0.0,0.0,0.0,0.0,0,0,0,0,0,0,0,0,0,0,0,0,0,0,0,1,0,0,0,0
88701530,0.0290039,0.0290039,0.0362549,0.0362549,15.0,0.92469,1.0,1.0,nan,nan,0.0,0.0,0.0,0.0,0.0,0.0,0.0,0.0,0.0,0.0,0.0,0.0,0.0,0.0,0.0,0,0.0,0.0,0.0,0.0,0.0,0.0,0,0,0,0,0,0,0,0,0,0,0,0,0,0,0,1,0,0,0,0
92310619,0.0326294,0.0326294,0.0277954,0.0277954,15.0,0.963965,1.0,1.0,nan,nan,0.0,0.0,0.0,0.0,0.0,0.0,0.0,0.0,0.0,0.0,0.0,0.0,0.0,0.0,0.0,0,0.0,0.0,0.0,0.0,0.0,0.0,0,0,0,0,0,0,0,0,0,0,0,0,0,0,0,1,0,0,0,0
95900640,0.03081665,0.03081665,0.04350586,0.04350586,15.0,1.003503,1.0,1.0,nan,nan,0.0,0.0,0.0,0.0,0.0,0.0,0.0,0.0,0.0,0.0,0.0,0.0,0.0,0.0,0.0,0,0.0,0.0,0.0,0.0,0.0,0.0,0,0,0,0,0,0,0,0,0,0,0,0,0,0,0,1,0,0,0,0
99500663,0.02991028,0.02991028,0.0447144,0.0447144,15.0,1.04283,1.0,1.0,nan,nan,0.0,0.0,0.0,0.0,0.0,0.0,0.0,0.0,0.0,0.0,0.0,0.0,0.0,0.0,0.0,0,0.0,0.0,0.0,0.0,0.0,0.0,0,0,0,0,0,0,0,0,0,0,0,0,0,0,0,1,0,0,0,0
103110662,0.0235657,0.0235657,0.04350586,0.04350586,15.0,1.08218,1.0,1.0,nan,nan,0.0,0.0,0.0,0.0,0.0,0.0,0.0,0.0,0.0,0.0,0.0,0.0,0.0,0.0,0.0,0,0.0,0.0,0.0,0.0,0.0,0.0,0,0,0,0,0,0,0,0,0,0,0,0,0,0,0,1,0,0,0,0
106701576,0.02991028,0.02991028,0.0398804,0.0398804,15.0,1.12188,1.0,1.0,nan,nan,0.0,0.0,0.0,0.0,0.0,0.0,0.0,0.0,0.0,0.0,0.0,0.0,0.0,0.0,0.0,0,0.0,0.0,0.0,0.0,0.0,0.0,0,0,0,0,0,0,0,0,0,0,0,0,0,0,0,1,0,0,0,0
110310619,0.0290039,0.0290039,0.04350586,0.04350586,15.0,1.161474,1.0,1.0,nan,nan,0.0,0.0,0.0,0.0,0.0,0.0,0.0,0.0,0.0,0.0,0.0,0.0,0.0,0.0,0.0,0,0.0,0.0,0.0,0.0,0.0,0.0,0,0,0,0,0,0,0,0,0,0,0,0,0,0,0,1,0,0,0,0
113900618,0.0326294,0.0326294,0.0410889,0.0410889,15.0,1.201243,1.0,1.0,nan,nan,0.0,0.0,0.0,0.0,0.0,0.0,0.0,0.0,0.0,0.0,0.0,0.0,0.0,0.0,0.0,0,0.0,0.0,0.0,0.0,0.0,0.0,0,0,0,0,0,0,0,0,0,0,0,0,0,0,0,1,0,0,0,0
117510643,0.0271912,0.0271912,0.0362549,0.0362549,15.0,1.2415,1.0,1.0,nan,nan,0.0,0.0,0.0,0.0,0.0,0.0,0.0,0.0,0.0,0.0,0.0,0.0,0.0,0.0,0.0,0,0.0,0.0,0.0,0.0,0.0,0.0,0,0,0,0,0,0,0,0,0,0,0,0,0,0,0,1,0,0,0,0
121100620,0.0271912,0.0271912,0.0386719,0.0386719,15.0,1.2813,1.0,1.0,nan,nan,0.0,0.0,0.0,0.0,0.0,0.0,0.0,0.0,0.0,0.0,0.0,0.0,0.0,0.0,0.0,0,0.0,0.0,0.0,0.0,0.0,0.0,0,0,0,0,0,0,0,0,0,0,0,0,0,0,0,1,0,0,0,0
124700634,0.0271912,0.0271912,0.0386719,0.0386719,15.0,1.32106,1.0,1.0,nan,nan,0.0,0.0,0.0,0.0,0.0,0.0,0.0,0.0,0.0,0.0,0.0,0.0,0.0,0.0,0.0,0,0.0,0.0,0.0,0.0,0.0,0.0,0,0,0,0,0,0,0,0,0,0,0,0,0,0,0,1,0,0,0,0
[...]
135510703,0.03081665,0.03081665,0.0398804,0.0398804,15.0,1.441274,1.0,1.0,nan,nan,0.0,0.0,0.0,0.0,0.0,0.0,0.0,0.0,0.0,0.0,0.0,0.0,0.0,0.0,0.0,0,0.0,0.0,0.0,0.0,0.0,0.0,0,0,0,0,0,0,0,0,0,0,0,0,0,0,0,1,0,0,0,0
139100620,0.03081665,0.03081665,0.0422974,0.0422974,15.0,1.48131,1.0,1.0,nan,nan,0.0,0.0,0.0,0.0,0.0,0.0,0.0,0.0,0.0,0.0,0.0,0.0,0.0,0.0,0.0,0,0.0,0.0,0.0,0.0,0.0,0.0,0,0,0,0,0,0,0,0,0,0,0,0,0,0,0,1,0,0,0,0
142710620,0.02991028,0.02991028,0.0386719,0.0386719,15.0,1.52137,1.0,1.0,nan,nan,0.0,0.0,0.0,0.0,0.0,0.0,0.0,0.0,0.0,0.0,0.0,0.0,0.0,0.0,0.0,0,0.0,0.0,0.0,0.0,0.0,0.0,0,0,0,0,0,0,0,0,0,0,0,0,0,0,0,1,0,0,0,0
146300620,0.0290039,0.0290039,0.03746338,0.03746338,15.0,1.56138,1.0,1.0,nan,nan,0.0,0.0,0.0,0.0,0.0,0.0,0.0,0.0,0.0,0.0,0.0,0.0,0.0,0.0,0.0,0,0.0,0.0,0.0,0.0,0.0,0.0,0,0,0,0,0,0,0,0,0,0,0,0,0,0,0,1,0,0,0,0
149910622,0.0280975,0.0280975,0.04350586,0.04350586,15.0,1.60193,1.0,1.0,nan,nan,0.0,0.0,0.0,0.0,0.0,0.0,0.0,0.0,0.0,0.0,0.0,0.0,0.0,0.0,0.0,0,0.0,0.0,0.0,0.0,0.0,0.0,0,0,0,0,0,0,0,0,0,0,0,0,0,0,0,1,0,0,0,0
153510674,0.031723,0.031723,0.0350464,0.0350464,15.0,1.64237,1.0,1.0,nan,nan,0.0,0.0,0.0,0.0,0.0,0.0,0.0,0.0,0.0,0.0,0.0,0.0,0.0,0.0,0.0,0,0.0,0.0,0.0,0.0,0.0,0.0,0,0,0,0,0,0,0,0,0,0,0,0,0,0,0,1,0,0,0,0
157100619,0.031723,0.031723,0.0362549,0.0362549,15.0,1.68257,1.0,1.0,nan,nan,0.0,0.0,0.0,0.0,0.0,0.0,0.0,0.0,0.0,0.0,0.0,0.0,0.0,0.0,0.0,0,0.0,0.0,0.0,0.0,0.0,0.0,0,0,0,0,0,0,0,0,0,0,0,0,0,0,0,1,0,0,0,0
160710619,0.024472,0.024472,0.0447144,0.0447144,15.0,1.72301,1.0,1.0,nan,nan,0.0,0.0,0.0,0.0,0.0,0.0,0.0,0.0,0.0,0.0,0.0,0.0,0.0,0.0,0.0,0,0.0,0.0,0.0,0.0,0.0,0.0,0,0,0,0,0,0,0,0,0,0,0,0,0,0,0,1,0,0,0,0
164300631,0.03534851,0.03534851,0.0459229,0.0459229,15.0,1.76314,1.0,1.0,nan,nan,0.0,0.0,0.0,0.0,0.0,0.0,0.0,0.0,0.0,0.0,0.0,0.0,0.0,0.0,0.0,0,0.0,0.0,0.0,0.0,0.0,0.0,0,0,0,0,0,0,0,0,0,0,0,0,0,0,0,1,0,0,0,0
167910703,0.03081665,0.03081665,0.0386719,0.0386719,15.0,1.80375,1.0,1.0,nan,nan,0.0,0.0,0.0,0.0,0.0,0.0,0.0,0.0,0.0,0.0,0.0,0.0,0.0,0.0,0.0,0,0.0,0.0,0.0,0.0,0.0,0.0,0,0,0,0,0,0,0,0,0,0,0,0,0,0,0,1,0,0,0,0
171500620,0.0326294,0.0326294,0.0410889,0.0410889,15.0,1.84426,1.0,1.0,nan,nan,0.0,0.0,0.0,0.0,0.0,0.0,0.0,0.0,0.0,0.0,0.0,0.0,0.0,0.0,0.0,0,0.0,0.0,0.0,0.0,0.0,0.0,0,0,0,0,0,0,0,0,0,0,0,0,0,0,0,1,0,0,0,0
175100618,0.0326294,0.0326294,0.04350586,0.04350586,15.0,1.88416,1.0,1.0,nan,nan,0.0,0.0,0.0,0.0,0.0,0.0,0.0,0.0,0.0,0.0,0.0,0.0,0.0,0.0,0.0,0,0.0,0.0,0.0,0.0,0.0,0.0,0,0,0,0,0,0,0,0,0,0,0,0,0,0,0,1,0,0,0,0
178710643,0.03534851,0.03534851,0.0338379,0.0338379,15.0,1.92453,1.0,1.0,nan,nan,0.0,0.0,0.0,0.0,0.0,0.0,0.0,0.0,0.0,0.0,0.0,0.0,0.0,0.0,0.0,0,0.0,0.0,0.0,0.0,0.0,0.0,0,0,0,0,0,0,0,0,0,0,0,0,0,0,0,1,0,0,0,0
182300696,0.02991028,0.02991028,0.0447144,0.0447144,15.0,1.96487,1.0,1.0,nan,nan,0.0,0.0,0.0,0.0,0.0,0.0,0.0,0.0,0.0,0.0,0.0,0.0,0.0,0.0,0.0,0,0.0,0.0,0.0,0.0,0.0,0.0,0,0,0,0,0,0,0,0,0,0,0,0,0,0,0,1,0,0,0,0
185900976,0.0290039,0.0290039,0.03746338,0.03746338,15.0,2.00555,1.0,1.0,nan,nan,0.0,0.0,0.0,0.0,0.0,0.0,0.0,0.0,0.0,0.0,0.0,0.0,0.0,0.0,0.0,0,0.0,0.0,0.0,0.0,0.0,0.0,0,0,0,0,0,0,0,0,0,0,0,0,0,0,0,1,0,0,0,0
189500618,0.0326294,0.0326294,0.0447144,0.0447144,15.0,2.045747,1.0,1.0,nan,nan,0.0,0.0,0.0,0.0,0.0,0.0,0.0,0.0,0.0,0.0,0.0,0.0,0.0,0.0,0.0,0,0.0,0.0,0.0,0.0,0.0,0.0,0,0,0,0,0,0,0,0,0,0,0,0,0,0,0,1,0,0,0,0
190310633,0.02991028,0.02991028,0.0386719,0.0386719,15.0,2.05468,1.0,1.0,nan,nan,0.0,0.0,0.0,0.0,0.0,0.0,0.0,0.0,0.0,0.0,0.0,0.0,0.0,0.0,0.0,0,0.0,0.0,0.0,0.0,0.0,0.0,0,0,0,0,0,0,0,0,0,0,0,0,0,0,0,1,0,0,0,0

File: log_battery_status_1.csv
timestamp,voltage_v,voltage_filtered_v,current_a,current_filtered_a,current_average_a,discharged_mah,remaining,scale,time_remaining_s,temperature,voltage_cell_v[0],voltage_cell_v[1],voltage_cell_v[2],voltage_cell_v[3],voltage_cell_v[4],voltage_cell_v[5],voltage_cell_v[6],voltage_cell_v[7],voltage_cell_v[8],voltage_cell_v[9],voltage_cell_v[10],voltage_cell_v[11],voltage_cell_v[12],voltage_cell_v[13],max_cell_voltage_delta,custom_faults,average_power,available_energy,full_charge_capacity_wh,remaining_capacity_wh,design_capacity,nominal_voltage,capacity,cycle_count,average_time_to_empty,serial_number,manufacture_date,state_of_health,max_error,interface_error,faults,average_time_to_full,over_discharge_count,connected,cell_count,source,priority,id,is_powering_off,is_required,warning,mode
16808664,50.25,50.25,0.115906,0.115906,0.115906,0.339773,0.98,0.0,nan,23.35,50.25,0.0,0.0,0.0,0.0,0.0,0.0,0.0,0.0,0.0,0.0,0.0,0.0,0.0,0.0,0,0.0,0.0,0.0,0.0,0.0,0.0,0,0,0,0,0,0,0,0,0,0,0,1,1,1,0,125,0,0,0,0
20796809,50.25,50.25,0.116455,0.116455,0.116455,0.42719,0.98,0.0,nan,23.6,50.25,0.0,0.0,0.0,0.0,0.0,0.0,0.0,0.0,0.0,0.0,0.0,0.0,0.0,0.0,0,0.0,0.0,0.0,0.0,0.0,0.0,0,0,0,0,0,0,0,0,0,0,0,1,1,1,0,125,0,0,0,0
24585540,50.125,50.125,7.54297,7.54297,7.54297,0.6824837,0.96,0.0,nan,23.6,50.125,0.0,0.0,0.0,0.0,0.0,0.0,0.0,0.0,0.0,0.0,0.0,0.0,0.0,0.0,0,0.0,0.0,0.0,0.0,0.0,0.0,0,0,0,0,0,0,0,0,0,0,0,1,1,1,0,125,0,0,0,0
28374650,50.1875,50.1875,3.17383,3.17383,3.17383,1.071603,0.97,0.0,nan,23.6,50.1875,0.0,0.0,0.0,0.0,0.0,0.0,0.0,0.0,0.0,0.0,0.0,0.0,0.0,0.0,0,0.0,0.0,0.0,0.0,0.0,0.0,0,0,0,0,0,0,0,0,0,0,0,1,1,1,0,125,0,0,0,0
32163718,50.1875,50.1875,3.27539,3.27539,3.27539,1.45202,0.97,0.0,nan,23.6,50.1875,0.0,0.0,0.0,0.0,0.0,0.0,0.0,0.0,0.0,0.0,0.0,0.0,0.0,0.0,0,0.0,0.0,0.0,0.0,0.0,0.0,0,0,0,0,0,0,0,0,0,0,0,1,1,1,0,125,0,0,0,0
35951728,49.6875,49.6875,29.84375,29.84375,29.84375,2.417927,0.91,0.0,nan,23.6,49.6875,0.0,0.0,0.0,0.0,0.0,0.0,0.0,0.0,0.0,0.0,0.0,0.0,0.0,0.0,0,0.0,0.0,0.0,0.0,0.0,0.0,0,0,0,0,0,0,0,0,0,0,0,1,1,1,0,125,0,0,0,0
39740460,47.78125,47.78125,120.4375,120.4375,120.4375,13.9739,0.68,0.0,nan,24.1,47.78125,0.0,0.0,0.0,0.0,0.0,0.0,0.0,0.0,0.0,0.0,0.0,0.0,0.0,0.0,0,0.0,0.0,0.0,0.0,0.0,0.0,0,0,0,0,0,0,0,0,0,0,0,1,1,1,0,125,0,0,0,0
43529234,49.65625,49.65625,8.86719,8.86719,8.86719,21.6007,0.91,0.0,nan,26.35,49.65625,0.0,0.0,0.0,0.0,0.0,0.0,0.0,0.0,0.0,0.0,0.0,0.0,0.0,0.0,0,0.0,0.0,0.0,0.0,0.0,0.0,0,0,0,0,0,0,0,0,0,0,0,1,1,1,0,125,0,0,0,0
47318063,49.1875,49.1875,40.03125,40.03125,40.03125,23.8988,0.85,0.0,nan,26.85,49.1875,0.0,0.0,0.0,0.0,0.0,0.0,0.0,0.0,0.0,0.0,0.0,0.0,0.0,0.0,0,0.0,0.0,0.0,0.0,0.0,0.0,0,0,0,0,0,0,0,0,0,0,0,1,1,1,0,125,0,0,0,0
51107608,49.40625,49.40625,27.7344,27.7344,27.7344,27.0901,0.88,0.0,nan,26.85,49.40625,0.0,0.0,0.0,0.0,0.0,0.0,0.0,0.0,0.0,0.0,0.0,0.0,0.0,0.0,0,0.0,0.0,0.0,0.0,0.0,0.0,0,0,0,0,0,0,0,0,0,0,0,1,1,1,0,125,0,0,0,0
55096048,49.46875,49.46875,26.6719,26.6719,26.6719,28.9979,0.88,0.0,nan,26.6,49.46875,0.0,0.0,0.0,0.0,0.0,0.0,0.0,0.0,0.0,0.0,0.0,0.0,0.0,0.0,0,0.0,0.0,0.0,0.0,0.0,0.0,0,0,0,0,0,0,0,0,0,0,0,1,1,1,0,125,0,0,0,0
58884439,49.78125,49.78125,8.421875,8.421875,8.421875,31.3208,0.92,0.0,nan,26.35,49.78125,0.0,0.0,0.0,0.0,0.0,0.0,0.0,0.0,0.0,0.0,0.0,0.0,0.0,0.0,0,0.0,0.0,0.0,0.0,0.0,0.0,0,0,0,0,0,0,0,0,0,0,0,1,1,1,0,125,0,0,0,0
62672707,49.6875,49.6875,15.2969,15.2969,15.2969,33.8583,0.91,0.0,nan,26.1,49.6875,0.0,0.0,0.0,0.0,0.0,0.0,0.0,0.0,0.0,0.0,0.0,0.0,0.0,0.0,0,0.0,0.0,0.0,0.0,0.0,0.0,0,0,0,0,0,0,0,0,0,0,0,1,1,1,0,125,0,0,0,0
66461488,49.6875,49.6875,15.4297,15.4297,15.4297,36.03596,0.91,0.0,nan,25.85,49.6875,0.0,0.0,0.0,0.0,0.0,0.0,0.0,0.0,0.0,0.0,0.0,0.0,0.0,0.0,0,0.0,0.0,0.0,0.0,0.0,0.0,0,0,0,0,0,0,0,0,0,0,0,1,1,1,0,125,0,0,0,0
70250286,49.6875,49.6875,15.7656,15.7656,15.7656,39.077,0.91,0.0,nan,25.85,49.6875,0.0,0.0,0.0,0.0,0.0,0.0,0.0,0.0,0.0,0.0,0.0,0.0,0.0,0.0,0,0.0,0.0,0.0,0.0,0.0,0.0,0,0,0,0,0,0,0,0,0,0,0,1,1,1,0,125,0,0,0,0
74040225,49.75,49.75,12.2578,12.2578,12.2578,41.46059,0.92,0.0,nan,25.85,49.75,0.0,0.0,0.0,0.0,0.0,0.0,0.0,0.0,0.0,0.0,0.0,0.0,0.0,0.0,0,0.0,0.0,0.0,0.0,0.0,0.0,0,0,0,0,0,0,0,0,0,0,0,1,1,1,0,125,0,0,0,0
77827874,49.875,49.875,4.984375,4.984375,4.984375,43.51582,0.93,0.0,nan,25.85,49.875,0.0,0.0,0.0,0.0,0.0,0.0,0.0,0.0,0.0,0.0,0.0,0.0,0.0,0.0,0,0.0,0.0,0.0,0.0,0.0,0.0,0,0,0,0,0,0,0,0,0,0,0,1,1,1,0,125,0,0,0,0
81616658,49.59375,49.59375,21.4531,21.4531,21.4531,47.34719,0.9,0.0,nan,25.6,49.59375,0.0,0.0,0.0,0.0,0.0,0.0,0.0,0.0,0.0,0.0,0.0,0.0,0.0,0.0,0,0.0,0.0,0.0,0.0,0.0,0.0,0,0,0,0,0,0,0,0,0,0,0,1,1,1,0,125,0,0,0,0
85405445,49.75,49.75,10.1641,10.1641,10.1641,51.3946,0.92,0.0,nan,25.6,49.75,0.0,0.0,0.0,0.0,0.0,0.0,0.0,0.0,0.0,0.0,0.0,0.0,0.0,0.0,0,0.0,0.0,0.0,0.0,0.0,0.0,0,0,0,0,0,0,0,0,0,0,0,1,1,1,0,125,0,0,0,0
89393637,49.625,49.625,17.96875,17.96875,17.96875,54.35754,0.9,0.0,nan,25.6,49.625,0.0,0.0,0.0,0.0,0.0,0.0,0.0,0.0,0.0,0.0,0.0,0.0,0.0,0.0,0,0.0,0.0,0.0,0.0,0.0,0.0,0,0,0,0,0,0,0,0,0,0,0,1,1,1,0,125,0,0,0,0
93183420,49.65625,49.65625,18.15625,18.15625,18.15625,57.1293,0.9,0.0,nan,25.6,49.65625,0.0,0.0,0.0,0.0,0.0,0.0,0.0,0.0,0.0,0.0,0.0,0.0,0.0,0.0,0,0.0,0.0,0.0,0.0,0.0,0.0,0,0,0,0,0,0,0,0,0,0,0,1,1,1,0,125,0,0,0,0
96971938,49.65625,49.65625,16.84375,16.84375,16.84375,59.4983,0.91,0.0,nan,25.6,49.65625,0.0,0.0,0.0,0.0,0.0,0.0,0.0,0.0,0.0,0.0,0.0,0.0,0.0,0.0,0,0.0,0.0,0.0,0.0,0.0,0.0,0,0,0,0,0,0,0,0,0,0,0,1,1,1,0,125,0,0,0,0
100761062,49.84375,49.84375,7.43359,7.43359,7.43359,61.096,0.93,0.0,nan,25.6,49.84375,0.0,0.0,0.0,0.0,0.0,0.0,0.0,0.0,0.0,0.0,0.0,0.0,0.0,0.0,0,0.0,0.0,0.0,0.0,0.0,0.0,0,0,0,0,0,0,0,0,0,0,0,1,1,1,0,125,0,0,0,0
104548796,49.84375,49.84375,7.66016,7.66016,7.66016,63.26986,0.93,0.0,nan,25.6,49.84375,0.0,0.0,0.0,0.0,0.0,0.0,0.0,0.0,0.0,0.0,0.0,0.0,0.0,0.0,0,0.0,0.0,0.0,0.0,0.0,0.0,0,0,0,0,0,0,0,0,0,0,0,1,1,1,0,125,0,0,0,0
108337588,49.78125,49.78125,11.0781,11.0781,11.0781,65.53553,0.92,0.0,nan,25.35,49.78125,0.0,0.0,0.0,0.0,0.0,0.0,0.0,0.0,0.0,0.0,0.0,0.0,0.0,0.0,0,0.0,0.0,0.0,0.0,0.0,0.0,0,0,0,0,0,0,0,0,0,0,0,1,1,1,0,125,0,0,0,0
112126370,49.84375,49.84375,7.60156,7.60156,7.60156,67.51779,0.93,0.0,nan,25.35,49.84375,0.0,0.0,0.0,0.0,0.0,0.0,0.0,0.0,0.0,0.0,0.0,0.0,0.0,0.0,0,0.0,0.0,0.0,0.0,0.0,0.0,0,0,0,0,0,0,0,0,0,0,0,1,1,1,0,125,0,0,0,0
115915881,49.875,49.875,5.82422,5.82422,5.82422,69.61952,0.93,0.0,nan,25.35,49.875,0.0,0.0,0.0,0.0,0.0,0.0,0.0,0.0,0.0,0.0,0.0,0.0,0.0,0.0,0,0.0,0.0,0.0,0.0,0.0,0.0,0,0,0,0,0,0,0,0,0,0,0,1,1,1,0,125,0,0,0,0
119703941,49.9375,49.9375,3.234375,3.234375,3.234375,71.20932,0.94,0.0,nan,25.35,49.9375,0.0,0.0,0.0,0.0,0.0,0.0,0.0,0.0,0.0,0.0,0.0,0.0,0.0,0.0,0,0.0,0.0,0.0,0.0,0.0,0.0,0,0,0,0,0,0,0,0,0,0,0,1,1,1,0,125,0,0,0,0
123692129,49.96875,49.96875,1.54199,1.54199,1.54199,72.37105,0.94,0.0,nan,25.35,49.96875,0.0,0.0,0.0,0.0,0.0,0.0,0.0,0.0,0.0,0.0,0.0,0.0,0.0,0.0,0,0.0,0.0,0.0,0.0,0.0,0.0,0,0,0,0,0,0,0,0,0,0,0,1,1,1,0,125,0,0,0,0
127480918,50.0,50.0,0.119751,0.119751,0.119751,72.564,0.95,0.0,nan,25.35,50.0,0.0,0.0,0.0,0.0,0.0,0.0,0.0,0.0,0.0,0.0,0.0,0.0,0.0,0.0,0,0.0,0.0,0.0,0.0,0.0,0.0,0,0,0,0,0,0,0,0,0,0,0,1,1,1,0,125,0,0,0,0
131269919,50.03125,50.03125,0.116089,0.116089,0.116089,72.65746,0.95,0.0,nan,25.35,50.03125,0.0,0.0,0.0,0.0,0.0,0.0,0.0,0.0,0.0,0.0,0.0,0.0,0.0,0.0,0,0.0,0.0,0.0,0.0,0.0,0.0,0,0,0,0,0,0,0,0,0,0,0,1,1,1,0,125,0,0,0,0
135058488,50.03125,50.03125,0.116028,0.116028,0.116028,72.75105,0.95,0.0,nan,25.35,50.03125,0.0,0.0,0.0,0.0,0.0,0.0,0.0,0.0,0.0,0.0,0.0,0.0,0.0,0.0,0,0.0,0.0,0.0,0.0,0.0,0.0,0,0,0,0,0,0,0,0,0,0,0,1,1,1,0,125,0,0,0,0
138847988,50.03125,50.03125,0.1161499,0.1161499,0.1161499,72.84501,0.95,0.0,nan,25.1,50.03125,0.0,0.0,0.0,0.0,0.0,0.0,0.0,0.0,0.0,0.0,0.0,0.0,0.0,0.0,0,0.0,0.0,0.0,0.0,0.0,0.0,0,0,0,0,0,0,0,0,0,0,0,1,1,1,0,125,0,0,0,0
142636052,50.03125,50.03125,0.1159668,0.1159668,0.1159668,72.93906,0.95,0.0,nan,25.1,50.03125,0.0,0.0,0.0,0.0,0.0,0.0,0.0,0.0,0.0,0.0,0.0,0.0,0.0,0.0,0,0.0,0.0,0.0,0.0,0.0,0.0,0,0,0,0,0,0,0,0,0,0,0,1,1,1,0,125,0,0,0,0
146425156,50.0625,50.0625,0.116333,0.116333,0.116333,73.03367,0.95,0.0,nan,25.1,50.0625,0.0,0.0,0.0,0.0,0.0,0.0,0.0,0.0,0.0,0.0,0.0,0.0,0.0,0.0,0,0.0,0.0,0.0,0.0,0.0,0.0,0,0,0,0,0,0,0,0,0,0,0,1,1,1,0,125,0,0,0,0
150213682,50.0625,50.0625,0.116333,0.116333,0.116333,73.1286,0.95,0.0,nan,25.1,50.0625,0.0,0.0,0.0,0.0,0.0,0.0,0.0,0.0,0.0,0.0,0.0,0.0,0.0,0.0,0,0.0,0.0,0.0,0.0,0.0,0.0,0,0,0,0,0,0,0,0,0,0,0,1,1,1,0,125,0,0,0,0
154002670,50.0625,50.0625,0.116394,0.116394,0.116394,73.22405,0.95,0.0,nan,25.1,50.0625,0.0,0.0,0.0,0.0,0.0,0.0,0.0,0.0,0.0,0.0,0.0,0.0,0.0,0.0,0,0.0,0.0,0.0,0.0,0.0,0.0,0,0,0,0,0,0,0,0,0,0,0,1,1,1,0,125,0,0,0,0
157990686,50.0625,50.0625,0.115906,0.115906,0.115906,73.3241,0.95,0.0,nan,25.1,50.0625,0.0,0.0,0.0,0.0,0.0,0.0,0.0,0.0,0.0,0.0,0.0,0.0,0.0,0.0,0,0.0,0.0,0.0,0.0,0.0,0.0,0,0,0,0,0,0,0,0,0,0,0,1,1,1,0,125,0,0,0,0
161780089,50.0625,50.0625,0.115356,0.115356,0.115356,73.42156,0.95,0.0,nan,25.1,50.0625,0.0,0.0,0.0,0.0,0.0,0.0,0.0,0.0,0.0,0.0,0.0,0.0,0.0,0.0,0,0.0,0.0,0.0,0.0,0.0,0.0,0,0,0,0,0,0,0,0,0,0,0,1,1,1,0,125,0,0,0,0
165568146,50.0625,50.0625,0.115356,0.115356,0.115356,73.51776,0.95,0.0,nan,25.1,50.0625,0.0,0.0,0.0,0.0,0.0,0.0,0.0,0.0,0.0,0.0,0.0,0.0,0.0,0.0,0,0.0,0.0,0.0,0.0,0.0,0.0,0,0,0,0,0,0,0,0,0,0,0,1,1,1,0,125,0,0,0,0
169356918,50.0625,50.0625,0.115906,0.115906,0.115906,73.6146,0.95,0.0,nan,25.1,50.0625,0.0,0.0,0.0,0.0,0.0,0.0,0.0,0.0,0.0,0.0,0.0,0.0,0.0,0.0,0,0.0,0.0,0.0,0.0,0.0,0.0,0,0,0,0,0,0,0,0,0,0,0,1,1,1,0,125,0,0,0,0
173145703,50.0625,50.0625,0.116272,0.116272,0.116272,73.71153,0.95,0.0,nan,25.1,50.0625,0.0,0.0,0.0,0.0,0.0,0.0,0.0,0.0,0.0,0.0,0.0,0.0,0.0,0.0,0,0.0,0.0,0.0,0.0,0.0,0.0,0,0,0,0,0,0,0,0,0,0,0,1,1,1,0,125,0,0,0,0
176934500,50.0625,50.0625,0.115845,0.115845,0.115845,73.80881,0.95,0.0,nan,25.1,50.0625,0.0,0.0,0.0,0.0,0.0,0.0,0.0,0.0,0.0,0.0,0.0,0.0,0.0,0.0,0,0.0,0.0,0.0,0.0,0.0,0.0,0,0,0,0,0,0,0,0,0,0,0,1,1,1,0,125,0,0,0,0
180723988,50.0625,50.0625,0.1161499,0.1161499,0.1161499,73.90651,0.95,0.0,nan,25.1,50.0625,0.0,0.0,0.0,0.0,0.0,0.0,0.0,0.0,0.0,0.0,0.0,0.0,0.0,0.0,0,0.0,0.0,0.0,0.0,0.0,0.0,0,0,0,0,0,0,0,0,0,0,0,1,1,1,0,125,0,0,0,0
184512035,50.0625,50.0625,0.116638,0.116638,0.116638,74.00465,0.95,0.0,nan,25.1,50.0625,0.0,0.0,0.0,0.0,0.0,0.0,0.0,0.0,0.0,0.0,0.0,0.0,0.0,0.0,0,0.0,0.0,0.0,0.0,0.0,0.0,0,0,0,0,0,0,0,0,0,0,0,1,1,1,0,125,0,0,0,0
188301819,50.0625,50.0625,0.116577,0.116577,0.116577,74.10326,0.95,0.0,nan,24.85,50.0625,0.0,0.0,0.0,0.0,0.0,0.0,0.0,0.0,0.0,0.0,0.0,0.0,0.0,0.0,0,0.0,0.0,0.0,0.0,0.0,0.0,0,0,0,0,0,0,0,0,0,0,0,1,1,1,0,125,0,0,0,0
190295381,50.0625,50.0625,0.116272,0.116272,0.116272,74.15425,0.96,0.0,nan,24.85,50.0625,0.0,0.0,0.0,0.0,0.0,0.0,0.0,0.0,0.0,0.0,0.0,0.0,0.0,0.0,0,0.0,0.0,0.0,0.0,0.0,0.0,0,0,0,0,0,0,0,0,0,0,0,1,1,1,0,125,0,0,0,0